File: Flexural Specimen/K-P-K 2 S.csv
0
0.0105
0.021
0.03151042
0.042
0.0525
0.063
0.0735
0.084
0.09451041
0.1049896
0.1155
0.126
0.1364896
0.147
0.1575
0.1679896
0.1785
0.189
0.1994896
0.2099896
0.2204896
0.2309896
0.2415
0.2519896
0.2624792
0.2729896
0.2834896
0.2939792
0.3044792
0.3149896
0.3254791
0.3359792
0.3464792
0.3569792
0.3674792
0.3779896
0.3884687
0.3989792
0.4094792
0.4199792
0.4304687
0.4409792
0.4514687
0.4619792
0.4724687
0.4829791
0.4934687
0.5039687
0.5144583
0.5249792
0.5354583
0.5459688
0.5564687
0.5669792
0.5774688
0.5879791
0.5984583
0.6089792
0.6194687
0.6299791
0.6404687
0.6509896
0.6614687
0.6719896
0.6824791
0.6929896
0.7034687
0.7139896
0.7244791
0.7349896
0.7454792
0.7559896
0.7664791
0.777
0.7874792
0.798
0.8084896
0.819
0.8294896
0.8400104
0.8504896
0.8610104
0.8715
0.8820104
0.8925
0.9030208
0.9135
0.9240208
0.9345104
0.9450104
0.9555
0.9660313
0.9765
0.9870209
0.9975104
1.008021
1.01851
1.029031
1.0395
1.050021
1.06051
1.071021
1.08151
1.092031
1.10251
1.113021
1.12351
1.134021
1.14451
1.155021
1.1655
1.176021
1.18651
1.19701
1.2075
1.218021
1.2285
1.23901
1.24951
1.26001
1.2705
1.28101
1.2915
1.30201
1.3125
1.323
1.3335
1.34401
1.35449
1.365
1.37551
1.386
1.3965
1.407
1.41749
1.428
1.4385
1.44899
1.4595
1.47
1.48049
1.491
1.5015
1.51199
1.52249
1.533
1.54349
1.55399
1.56449
1.574979
1.58549
1.59599
1.60649
1.61699
1.62749
1.637969
1.64849
1.658979
1.669479
1.679979
1.69049
1.700969
1.71149
1.721969
1.732479
1.742979
1.753479
1.763958
1.774479
1.784969
1.795479
1.805969
1.816479
1.826958
1.837479
1.847958
1.858479
1.868969
1.879479
1.889958
1.900479
1.910958
1.921479
1.931969
1.942479
1.952958
1.963479
1.973969
1.98449
1.994969
2.00549
2.015969
2.0265
2.036969
2.04749
2.057979
2.0685
2.078979
2.0895
2.099979
2.1105
2.12099
2.1315
2.141989
2.15251
2.16299
2.17351
2.184
2.19451
2.205
2.215521
2.226
2.236521
2.24701
2.257521
2.268
2.278521
2.289
2.299521
2.310021
2.320521
2.33101
2.341531
2.35201
2.362521
2.373021
2.383521
2.39401
2.404531
2.415
2.425521
2.436021
2.44651
2.457011
2.467531
2.478
2.488521
2.49901
2.50951
2.52
2.530521
2.541
2.55151
2.56201
2.5725
2.583
2.593521
2.60399
2.61451
2.62501
2.6355
2.646
2.65651
2.66699
2.6775
2.688
2.6985
2.709
2.71951
2.72999
2.7405
2.751
2.76149
2.772
2.7825
2.792989
2.8035
2.814
2.82449
2.83499
2.84549
2.855989
2.86649
2.87699
2.887479
2.89799
2.908489
2.918979
2.929479
2.93999
2.950479
2.960989
2.971479
2.981979
2.992479
3.002979
3.013469
3.023989
3.034479
3.044979
3.055469
3.065979
3.076469
3.086979
3.097469
3.107979
3.118469
3.128979
3.139458
3.149979
3.160458
3.170979
3.181469
3.191979
3.202458
3.212979
3.223469
3.233979
3.244469
3.254979
3.265458
3.27599
3.286469
3.296989
3.307479
3.31799
3.328469
3.338989
3.349469
3.36
3.370479
3.38099
3.391479
3.402
3.412479
3.423
3.4335
3.444
3.454489
3.46501
3.47549
3.48601
3.4965
3.50701
3.5175
3.528021
3.5385
3.549021
3.55951
3.570021
3.5805
3.591021
3.6015
3.612021
3.62251
3.633021
3.64351
3.654031
3.6645
3.675031
3.685521
3.696021
3.70651
3.717031
3.72751
3.738021
3.748521
3.759021
3.76951
3.780021
3.7905
3.801021
3.81151
3.82201
3.83251
3.843021
3.8535
3.86401
3.87451
3.885
3.8955
3.906021
3.9165
3.92701
3.9375
3.948
3.9585
3.96901
3.97949
3.99
4.0005
4.011
4.0215
4.032
4.04249
4.053
4.0635
4.073989
4.0845
4.095
4.10549
4.11599
4.1265
4.13699
4.14749
4.15799
4.168489
4.178989
4.189489
4.199979
4.21049
4.22099
4.23149
4.24199
4.25249
4.262969
4.273489
4.283979
4.294479
4.304979
4.31549
4.325969
4.33649
4.346969
4.357479
4.367969
4.378479
4.388968
4.399479
4.409969
4.420479
4.430969
4.441479
4.451958
4.462479
4.472969
4.483479
4.493968
4.504479
4.514958
4.525479
4.535958
4.546479
4.556969
4.567479
4.577958
4.58849
4.598969
4.609479
4.619969
4.630479
4.640969
4.65149
4.661969
4.67249
4.682979
4.6935
4.703979
4.7145
4.724979
4.7355
4.745989
4.7565
4.76699
4.77751
4.78799
4.798511
4.809
4.81951
4.83
4.840521
4.851
4.861521
4.87201
4.88251
4.893
4.903521
4.914
4.924521
4.935021
4.94551
4.95601
4.966531
4.97701
4.987521
4.998021
5.008521
5.019011
5.029521
5.04
5.050521
5.061021
5.07151
5.08201
5.092521
5.103
5.11351
5.124011
5.134511
5.145
5.155521
5.166
5.17651
5.18701
5.1975
5.208
5.218521
5.229
5.239511
5.25001
5.2605
5.271
5.28151
5.291989
5.3025
5.313
5.32349
5.334
5.344511
5.35499
5.3655
5.376
5.386489
5.396989
5.4075
5.41799
5.4285
5.439
5.44949
5.46
5.47049
5.480989
5.491489
5.501989
5.512479
5.52299
5.53349
5.543979
5.554479
5.56499
5.575479
5.585989
5.596479
5.606979
5.617479
5.627979
5.638469
5.648979
5.659469
5.669979
5.680469
5.690979
5.701458
5.711979
5.722469
5.732979
5.743469
5.753979
5.764458
5.774979
5.785469
5.795979
5.806468
5.816979
5.827458
5.837979
5.848469
5.858979
5.869469
5.879979
5.890469
5.90099
5.911469
5.921979
5.932479
5.942989
5.953469
5.96399
5.974469
5.98499
5.995479
6.00599
6.016479
6.02701
6.037479
6.048
6.058489
6.069
6.07949
6.09001
6.10049
6.111011
6.1215
6.13201
6.1425
6.153021
6.163489
6.174021
6.18451
6.19501
6.2055
6.216031
6.2265
6.237021
6.24751
6.258021
6.26851
6.279031
6.2895
6.300031
6.310521
6.321021
6.331511
6.342031
6.3525
6.363021
6.373521
6.384021
6.39451
6.405021
6.4155
6.426021
6.436511
6.447011
6.4575
6.468021
6.4785
6.48901
6.49951
6.51001
6.5205
6.53101
6.5415
6.552011
6.5625
6.573
6.5835
6.59401
6.604489
6.615
6.6255
6.63599
6.6465
6.657
6.66749
6.678
6.6885
6.698989
6.7095
6.72
6.73049
6.741
6.7515
6.76199
6.77249
6.783
6.793489
6.803989
6.814489
6.824979
6.835489
6.84599
6.856479
6.86699
6.87749
6.887969
6.898489
6.908979
6.919479
6.929979
6.940479
6.950969
6.961479
6.971969
6.982479
6.992979
7.003479
7.013958
7.024489
7.034969
7.045479
7.055969
7.066479
7.076958
7.087479
7.097969
7.108469
7.118968
7.129479
7.139958
7.150479
7.160958
7.171479
7.181969
7.192479
7.202958
7.213479
7.223969
7.234489
7.244979
7.255479
7.265969
7.27649
7.286969
7.2975
7.307979
7.31849
7.328979
7.3395
7.349979
7.36051
7.370989
7.3815
7.39199
7.40251
7.41299
7.423511
7.434
7.44451
7.455
7.465521
7.476
7.486521
7.49701
7.50751
7.51801
7.528521
7.539
7.549521
7.56001
7.570521
7.58101
7.591531
7.60201
7.612521
7.623021
7.633521
7.644011
7.654521
7.665
7.675521
7.686021
7.69651
7.70701
7.717521
7.728
7.738521
7.749011
7.759511
7.77
7.780521
7.791
7.80151
7.81201
7.82251
7.833
7.843521
7.854
7.864511
7.875
7.8855
7.896
7.90651
7.917
7.9275
7.938
7.94849
7.959
7.9695
7.97999
7.9905
8.000999
8.01149
8.022
8.0325
8.04299
8.0535
8.064
8.07449
8.08499
8.09549
8.105989
8.116489
8.127
8.137479
8.147989
8.158489
8.168979
8.179479
8.189989
8.20048
8.210979
8.221479
8.231979
8.242479
8.252979
8.263469
8.27399
8.284469
8.294979
8.305469
8.315989
8.326468
8.336979
8.347468
8.357979
8.368468
8.378979
8.389459
8.399979
8.410469
8.420979
8.431469
8.441979
8.452458
8.462979
8.473458
8.483979
8.494469
8.504979
8.515469
8.52599
8.536469
8.546979
8.557479
8.567989
8.578468
8.588989
8.599479
8.609989
8.620479
8.630989
8.641479
8.651999
8.662479
8.673
8.68349
8.694
8.70449
8.715011
8.72549
8.736011
8.7465
8.75701
8.7675
8.778021
8.788489
8.799021
8.80951
8.82001
8.8305
8.841031
8.8515
8.86202
8.87251
8.88302
8.89351
8.904031
8.9145
8.925021
8.935521
8.946021
8.956511
8.967031
8.9775
8.988021
8.998521
9.009021
9.01951
9.030031
9.0405
9.051021
9.06151
9.07201
9.08251
9.09302
9.1035
9.11401
9.124511
9.135011
9.1455
9.156011
9.1665
9.177011
9.1875
9.198
9.2085
9.219
9.229489
9.24
9.2505
9.260989
9.2715
9.282
9.292489
9.302999
9.313499
9.32399
9.33449
9.345
9.35549
9.366
9.3765
9.38699
9.39749
9.40799
9.418489
9.428989
9.4395
9.449979
9.460489
9.470989
9.481489
9.491989
9.502489
9.51298
9.52349
9.533979
9.544479
9.554979
9.56549
9.575969
9.586479
9.596969
9.607479
9.617969
9.628479
9.638968
9.649479
9.659968
9.670479
9.680968
9.691479
9.701959
9.712479
9.722969
9.733479
9.743969
9.754479
9.764958
9.775479
9.785958
9.796479
9.806969
9.817479
9.827958
9.838479
9.848969
9.859489
9.869968
9.880489
9.890979
9.9015
9.911979
9.922489
9.932989
9.943489
9.953979
9.964499
9.974979
9.9855
9.99599
10.0065
10.01699
10.02752
10.03799
10.04851
10.059
10.06951
10.08
10.09052
10.101
10.11152
10.12201
10.13251
10.14301
10.15352
10.164
10.17452
10.18501
10.19551
10.20601
10.21653
10.227
10.23752
10.24802
10.25852
10.26901
10.27952
10.29
10.30052
10.31101
10.32151
10.33201
10.34252
10.353
10.36352
10.37401
10.38451
10.39501
10.40552
10.416
10.42652
10.43701
10.4475
10.458
10.46852
10.479
10.48951
10.50001
10.5105
10.521
10.53151
10.542
10.55251
10.563
10.5735
10.584
10.5945
10.60499
10.6155
10.626
10.63649
10.647
10.6575
10.66799
10.67849
10.689
10.69949
10.71
10.72049
10.73099
10.74149
10.75199
10.76248
10.77299
10.78349
10.79399
10.80449
10.81499
10.82548
10.83599
10.84648
10.85698
10.86748
10.87798
10.88847
10.89898
10.90948
10.91998
10.93047
10.94098
10.95147
10.96198
10.97247
10.98298
10.99347
11.00398
11.01446
11.02498
11.03546
11.04598
11.05647
11.06698
11.07746
11.08798
11.09847
11.10898
11.11947
11.12998
11.14047
11.15099
11.16147
11.17198
11.18248
11.19299
11.20347
11.21399
11.22448
11.23499
11.24548
11.25599
11.26648
11.277
11.28748
11.298
11.30849
11.319
11.32949
11.34001
11.35049
11.36101
11.3715
11.38201
11.3925
11.40302
11.4135
11.42402
11.43451
11.44501
11.4555
11.46603
11.4765
11.48702
11.49751
11.50802
11.51851
11.52903
11.5395
11.55003
11.56052
11.57101
11.58151
11.59203
11.6025
11.61302
11.62352
11.63402
11.64451
11.65502
11.6655
11.67602
11.68651
11.69701
11.7075
11.71802
11.7285
11.73901
11.74951
11.76001
11.7705
11.78101
11.7915
11.80201
11.8125
11.823
11.8335
11.84401
11.85449
11.865
11.8755
11.88599
11.89649
11.907
11.91749
11.928
11.9385
11.94899
11.9595
11.97
11.98049
11.991
12.0015
12.01199
12.0225
12.033
12.04349
12.05399
12.06449
12.07498
12.08549
12.09599
12.10648
12.11699
12.12749
12.13797
12.14849
12.15899
12.16948
12.17998
12.19049
12.20097
12.21148
12.22197
12.23248
12.24298
12.25348
12.26396
12.27448
12.28497
12.29548
12.30597
12.31648
12.32696
12.33748
12.34796
12.35848
12.36897
12.37948
12.38996
12.40048
12.41096
12.42148
12.43197
12.44248
12.45296
12.46348
12.47397
12.48449
12.49498
12.50549
12.51597
12.52649
12.53697
12.54749
12.55799
12.56849
12.57898
12.5895
12.59998
12.6105
12.62099
12.6315
12.64199
12.65252
12.66299
12.67351
12.684
12.69451
12.705
12.71552
12.726
12.73652
12.74701
12.75752
12.768
12.77852
12.789
12.79952
12.81001
12.82052
12.83101
12.84153
12.852
12.86252
12.87301
12.88352
12.89401
12.90453
12.915
12.92552
12.93601
12.94651
12.95701
12.96752
12.978
12.98851
12.99901
13.00952
13.02001
13.03052
13.041
13.05152
13.06201
13.07251
13.083
13.09352
13.104
13.11451
13.12501
13.1355
13.146
13.15651
13.16699
13.1775
13.188
13.1985
13.209
13.2195
13.22999
13.2405
13.251
13.26149
13.272
13.2825
13.29299
13.3035
13.314
13.32448
13.33499
13.34549
13.35599
13.36649
13.377
13.38748
13.39799
13.40849
13.41898
13.42948
13.43999
13.45047
13.46099
13.47148
13.48198
13.49248
13.50298
13.51347
13.52399
13.53448
13.54498
13.55547
13.56599
13.57647
13.58698
13.59747
13.60798
13.61847
13.62898
13.63946
13.64998
13.66047
13.67098
13.68147
13.69198
13.70246
13.71298
13.72346
13.73398
13.74447
13.75498
13.76547
13.77599
13.78647
13.79699
13.80748
13.81799
13.82847
13.83899
13.84947
13.85999
13.87048
13.88099
13.89148
13.902
13.91248
13.923
13.93349
13.944
13.95449
13.96501
13.97549
13.98601
13.9965
14.00701
14.0175
14.02802
14.03849
14.04902
14.05951
14.07002
14.0805
14.09103
14.1015
14.11202
14.12251
14.13302
14.14351
14.15403
14.1645
14.17502
14.18551
14.19601
14.20651
14.21703
14.2275
14.23802
14.24851
14.25902
14.26951
14.28002
14.2905
14.30102
14.31151
14.32201
14.3325
14.34302
14.3535
14.36401
14.37451
14.38501
14.3955
14.40601
14.4165
14.42701
14.4375
14.448
14.4585
14.46901
14.47949
14.49
14.5005
14.511
14.5215
14.53201
14.54249
14.553
14.5635
14.57399
14.5845
14.595
14.60549
14.616
14.6265
14.63699
14.64749
14.65799
14.66849
14.67899
14.6895
14.69998
14.71049
14.72099
14.73148
14.74199
14.75249
14.76298
14.77349
14.78398
14.79448
14.80498
14.81549
14.82597
14.83648
14.84697
14.85748
14.86798
14.87848
14.88896
14.89948
14.90997
14.92047
14.93097
14.94148
14.95196
14.96248
14.97296
14.98348
14.99397
15.00448
15.01496
15.02548
15.03596
15.04648
15.05697
15.06748
15.07797
15.08849
15.09897
15.10949
15.11997
15.13049
15.14097
15.1515
15.16197
15.17249
15.18298
15.1935
15.20398
15.2145
15.22495
15.22531